%% wavelength, n, k
    0.4010477910  2.06348000e+00  1.24500000e-02  
    0.4026370240  2.06099000e+00  1.19710000e-02  
    0.4042262270  2.05855000e+00  1.15150000e-02  
    0.4058154300  2.05615700e+00  1.10820000e-02  
    0.4074046330  2.05380900e+00  1.06690000e-02  
    0.4089938350  2.05150400e+00  1.02770000e-02  
    0.4105830080  2.04924000e+00  9.90300000e-03  
    0.4121721800  2.04701600e+00  9.54700000e-03  
    0.4137613830  2.04483000e+00  9.20800000e-03  
    0.4153505250  2.04268000e+00  8.88500000e-03  
    0.4169396360  2.04056500e+00  8.57700000e-03  
    0.4185288090  2.03848400e+00  8.28400000e-03  
    0.4201179200  2.03643600e+00  8.00400000e-03  
    0.4217070920  2.03442000e+00  7.73700000e-03  
    0.4232961430  2.03243400e+00  7.48200000e-03  
    0.4248852540  2.03047800e+00  7.23900000e-03  
    0.4264743650  2.02855100e+00  7.00700000e-03  
    0.4280634160  2.02665100e+00  6.78600000e-03  
    0.4296524960  2.02477800e+00  6.57400000e-03  
    0.4312415160  2.02293100e+00  6.37200000e-03  
    0.4328305660  2.02111000e+00  6.17900000e-03  
    0.4344195860  2.01931300e+00  5.99500000e-03  
    0.4360085450  2.01754000e+00  5.81900000e-03  
    0.4375975650  2.01578900e+00  5.65100000e-03  
    0.4391865230  2.01406200e+00  5.49000000e-03  
    0.4407754820  2.01235600e+00  5.33600000e-03  
    0.4423644100  2.01067100e+00  5.18800000e-03  
    0.4439533080  2.00900700e+00  5.04800000e-03  
    0.4455422360  2.00736200e+00  4.91300000e-03  
    0.4471311040  2.00573800e+00  4.78400000e-03  
    0.4487199710  2.00413200e+00  4.66100000e-03  
    0.4503087770  2.00254400e+00  4.54300000e-03  
    0.4518976140  2.00097400e+00  4.43000000e-03  
    0.4534864200  1.99942100e+00  4.32200000e-03  
    0.4550751950  1.99788600e+00  4.21800000e-03  
    0.4566639710  1.99636600e+00  4.11900000e-03  
    0.4582526860  1.99486300e+00  4.02400000e-03  
    0.4598414000  1.99337500e+00  3.93400000e-03  
    0.4614300840  1.99190200e+00  3.84700000e-03  
    0.4630187380  1.99044500e+00  3.76400000e-03  
    0.4646073610  1.98900100e+00  3.68400000e-03  
    0.4661959840  1.98757100e+00  3.60800000e-03  
    0.4677845760  1.98615500e+00  3.53500000e-03  
    0.4693731380  1.98475200e+00  3.46500000e-03  
    0.4709616700  1.98336200e+00  3.39800000e-03  
    0.4725502010  1.98198500e+00  3.33400000e-03  
    0.4741386720  1.98062000e+00  3.27200000e-03  
    0.4757271120  1.97926600e+00  3.21400000e-03  
    0.4773155210  1.97792400e+00  3.15700000e-03  
    0.4789039610  1.97659400e+00  3.10400000e-03  
    0.4804922790  1.97527500e+00  3.05200000e-03  
    0.4820806270  1.97396600e+00  3.00300000e-03  
    0.4836689450  1.97266800e+00  2.95600000e-03  
    0.4852572330  1.97138000e+00  2.91100000e-03  
    0.4868454590  1.97010200e+00  2.86800000e-03  
    0.4884336550  1.96883400e+00  2.82700000e-03  
    0.4900218200  1.96757500e+00  2.78700000e-03  
    0.4916099550  1.96632500e+00  2.75000000e-03  
    0.4931980900  1.96508400e+00  2.71400000e-03  
    0.4947861940  1.96385300e+00  2.67900000e-03  
    0.4963742070  1.96262900e+00  2.64700000e-03  
    0.4979622190  1.96141400e+00  2.61600000e-03  
    0.4995502010  1.96020700e+00  2.58600000e-03  
    0.5011381230  1.95900800e+00  2.55700000e-03  
    0.5027260130  1.95781700e+00  2.53100000e-03  
    0.5043138730  1.95663300e+00  2.50500000e-03  
    0.5059017030  1.95545700e+00  2.48000000e-03  
    0.5074895020  1.95428800e+00  2.45700000e-03  
    0.5090772400  1.95312600e+00  2.43500000e-03  
    0.5106649480  1.95197100e+00  2.41400000e-03  
    0.5122525630  1.95082200e+00  2.39400000e-03  
    0.5138402100  1.94968000e+00  2.37600000e-03  
    0.5154278560  1.94854400e+00  2.35800000e-03  
    0.5170153810  1.94741500e+00  2.34100000e-03  
    0.5186029050  1.94629100e+00  2.32500000e-03  
    0.5201903080  1.94517300e+00  2.31000000e-03  
    0.5217777100  1.94406200e+00  2.29600000e-03  
    0.5233651120  1.94295500e+00  2.28300000e-03  
    0.5249524540  1.94185400e+00  2.27100000e-03  
    0.5265397340  1.94075900e+00  2.25900000e-03  
    0.5281270140  1.93966900e+00  2.24900000e-03  
    0.5297141720  1.93858300e+00  2.23900000e-03  
    0.5313013310  1.93750300e+00  2.22900000e-03  
    0.5328884280  1.93642800e+00  2.22100000e-03  
    0.5344754640  1.93535700e+00  2.21300000e-03  
    0.5360625000  1.93429100e+00  2.20600000e-03  
    0.5376494750  1.93322900e+00  2.19900000e-03  
    0.5392363890  1.93217200e+00  2.19300000e-03  
    0.5408232420  1.93111900e+00  2.18800000e-03  
    0.5424100340  1.93007000e+00  2.18400000e-03  
    0.5439968260  1.92902600e+00  2.17900000e-03  
    0.5455835570  1.92798500e+00  2.17600000e-03  
    0.5471702270  1.92694800e+00  2.17300000e-03  
    0.5487567750  1.92591500e+00  2.17000000e-03  
    0.5503433840  1.92488500e+00  2.16800000e-03  
    0.5519298710  1.92385900e+00  2.16700000e-03  
    0.5535162960  1.92283700e+00  2.16600000e-03  
    0.5551027220  1.92181800e+00  2.16600000e-03  
    0.5566890870  1.92080200e+00  2.16600000e-03  
    0.5582753910  1.91979000e+00  2.16600000e-03  
    0.5598616330  1.91878000e+00  2.16700000e-03  
    0.5614478150  1.91777400e+00  2.16800000e-03  
    0.5630339360  1.91677100e+00  2.17000000e-03  
    0.5646199950  1.91577000e+00  2.17200000e-03  
    0.5662059940  1.91477300e+00  2.17500000e-03  
    0.5677919310  1.91377800e+00  2.17800000e-03  
    0.5693778080  1.91278600e+00  2.18100000e-03  
    0.5709636840  1.91179600e+00  2.18500000e-03  
    0.5725494380  1.91080900e+00  2.18900000e-03  
    0.5741351930  1.90982500e+00  2.19300000e-03  
    0.5757208250  1.90884300e+00  2.19800000e-03  
    0.5773064580  1.90786300e+00  2.20300000e-03  
    0.5788919680  1.90688500e+00  2.20800000e-03  
    0.5804774170  1.90591000e+00  2.21400000e-03  
    0.5820628660  1.90493700e+00  2.22000000e-03  
    0.5836482540  1.90396600e+00  2.22700000e-03  
    0.5852335210  1.90299700e+00  2.23300000e-03  
    0.5868187260  1.90202900e+00  2.24000000e-03  
    0.5884039310  1.90106400e+00  2.24800000e-03  
    0.5899890140  1.90010100e+00  2.25500000e-03  
    0.5915740360  1.89913900e+00  2.26300000e-03  
    0.5931589970  1.89818000e+00  2.27100000e-03  
    0.5947438960  1.89722100e+00  2.28000000e-03  
    0.5963287350  1.89626500e+00  2.28800000e-03  
    0.5979134520  1.89531000e+00  2.29700000e-03  
    0.5994981690  1.89435700e+00  2.30600000e-03  
    0.6010828250  1.89340500e+00  2.31600000e-03  
    0.6026673580  1.89245400e+00  2.32600000e-03  
    0.6042518310  1.89150500e+00  2.33600000e-03  
    0.6058363040  1.89055700e+00  2.34600000e-03  
    0.6074206540  1.88961100e+00  2.35600000e-03  
    0.6090049440  1.88866600e+00  2.36700000e-03  
    0.6105891110  1.88772200e+00  2.37800000e-03  
    0.6121732180  1.88677900e+00  2.38900000e-03  
    0.6137573240  1.88583700e+00  2.40000000e-03  
    0.6153413090  1.88489700e+00  2.41200000e-03  
    0.6169252320  1.88395700e+00  2.42400000e-03  
    0.6185090940  1.88301800e+00  2.43600000e-03  
    0.6200928340  1.88208100e+00  2.44800000e-03  
    0.6216765750  1.88114400e+00  2.46100000e-03  
    0.6232601320  1.88020800e+00  2.47300000e-03  
    0.6248436890  1.87927300e+00  2.48600000e-03  
    0.6264271240  1.87833900e+00  2.49900000e-03  
    0.6280105590  1.87740600e+00  2.51200000e-03  
    0.6295938720  1.87647300e+00  2.52600000e-03  
    0.6311771240  1.87554100e+00  2.54000000e-03  
    0.6327602540  1.87460900e+00  2.55300000e-03  
    0.6343433840  1.87367900e+00  2.56800000e-03  
    0.6359263310  1.87274900e+00  2.58200000e-03  
    0.6375092770  1.87181900e+00  2.59600000e-03  
    0.6390921020  1.87089000e+00  2.61100000e-03  
    0.6406748660  1.86996100e+00  2.62600000e-03  
    0.6422575070  1.86903300e+00  2.64100000e-03  
    0.6438401490  1.86810500e+00  2.65600000e-03  
    0.6454226680  1.86717800e+00  2.67100000e-03  
    0.6470050660  1.86625100e+00  2.68700000e-03  
    0.6485874020  1.86532400e+00  2.70200000e-03  
    0.6501696780  1.86439800e+00  2.71800000e-03  
    0.6517518310  1.86347200e+00  2.73400000e-03  
    0.6533339230  1.86254600e+00  2.75100000e-03  
    0.6549158940  1.86162100e+00  2.76700000e-03  
    0.6564978640  1.86069500e+00  2.78400000e-03  
    0.6580797120  1.85977000e+00  2.80000000e-03  
    0.6596614380  1.85884500e+00  2.81700000e-03  
    0.6612430420  1.85792000e+00  2.83400000e-03  
    0.6628246460  1.85699500e+00  2.85200000e-03  
    0.6644061280  1.85607100e+00  2.86900000e-03  
    0.6659875490  1.85514600e+00  2.88700000e-03  
    0.6675688480  1.85422100e+00  2.90400000e-03  
    0.6691500240  1.85329600e+00  2.92200000e-03  
    0.6707311400  1.85237200e+00  2.94000000e-03  
    0.6723121950  1.85144700e+00  2.95900000e-03  
    0.6738931270  1.85052200e+00  2.97700000e-03  
    0.6754739990  1.84959700e+00  2.99600000e-03  
    0.6770547490  1.84867100e+00  3.01400000e-03  
    0.6786353760  1.84774600e+00  3.03300000e-03  
    0.6802159420  1.84682100e+00  3.05200000e-03  
    0.6817964480  1.84589500e+00  3.07100000e-03  
    0.6833768310  1.84496900e+00  3.09100000e-03  
    0.6849570920  1.84404300e+00  3.11000000e-03  
    0.6865372310  1.84311600e+00  3.13000000e-03  
    0.6881173710  1.84219000e+00  3.15000000e-03  
    0.6896973880  1.84126300e+00  3.16900000e-03  
    0.6912772220  1.84033500e+00  3.19000000e-03  
    0.6928570560  1.83940800e+00  3.21000000e-03  
    0.6944367680  1.83848000e+00  3.23000000e-03  
    0.6960163570  1.83755100e+00  3.25100000e-03  
    0.6975958250  1.83662200e+00  3.27200000e-03  
    0.6991752320  1.83569300e+00  3.29200000e-03  
    0.7007545780  1.83476300e+00  3.31300000e-03  
    0.7023338010  1.83383300e+00  3.33500000e-03  
    0.7039129030  1.83290300e+00  3.35600000e-03  
    0.7054918210  1.83197200e+00  3.37700000e-03  
    0.7070707400  1.83104000e+00  3.39900000e-03  
    0.7086495360  1.83010800e+00  3.42100000e-03  
    0.7102282100  1.82917500e+00  3.44300000e-03  
    0.7118068240  1.82824200e+00  3.46500000e-03  
    0.7133853150  1.82730800e+00  3.48700000e-03  
    0.7149636840  1.82637400e+00  3.50900000e-03  
    0.7165419310  1.82543900e+00  3.53200000e-03  
    0.7181201170  1.82450300e+00  3.55400000e-03  
    0.7196981810  1.82356700e+00  3.57700000e-03  
    0.7212761230  1.82263000e+00  3.60000000e-03  
    0.7228539430  1.82169200e+00  3.62300000e-03  
    0.7244317020  1.82075400e+00  3.64700000e-03  
    0.7260093380  1.81981500e+00  3.67000000e-03  
    0.7275868530  1.81887500e+00  3.69300000e-03  
    0.7291642460  1.81793500e+00  3.71700000e-03  
    0.7307415770  1.81699300e+00  3.74100000e-03  
    0.7323187260  1.81605100e+00  3.76500000e-03  
    0.7338958740  1.81510800e+00  3.78900000e-03  
    0.7354727780  1.81416500e+00  3.81300000e-03  
    0.7370496830  1.81322100e+00  3.83800000e-03  
    0.7386264040  1.81227500e+00  3.86200000e-03  
    0.7402030030  1.81132900e+00  3.88700000e-03  
    0.7417795410  1.81038200e+00  3.91200000e-03  
    0.7433559570  1.80943500e+00  3.93700000e-03  
    0.7449322510  1.80848600e+00  3.96200000e-03  
    0.7465084230  1.80753600e+00  3.98800000e-03  
    0.7480844120  1.80658600e+00  4.01300000e-03  
    0.7496604000  1.80563400e+00  4.03900000e-03  
    0.7512362060  1.80468200e+00  4.06400000e-03  
    0.7528118900  1.80372900e+00  4.09000000e-03  
    0.7543875120  1.80277500e+00  4.11600000e-03  
    0.7559630130  1.80182000e+00  4.14300000e-03  
    0.7575383300  1.80086400e+00  4.16900000e-03  
    0.7591135860  1.79990600e+00  4.19500000e-03  
    0.7606886600  1.79894800e+00  4.22200000e-03  
    0.7622636720  1.79798900e+00  4.24900000e-03  
    0.7638385010  1.79702900e+00  4.27600000e-03  
    0.7654132690  1.79606800e+00  4.30300000e-03  
    0.7669879150  1.79510600e+00  4.33000000e-03  
    0.7685623780  1.79414200e+00  4.35800000e-03  
    0.7701368410  1.79317800e+00  4.38500000e-03  
    0.7717110600  1.79221200e+00  4.41300000e-03  
    0.7732852170  1.79124600e+00  4.44100000e-03  
    0.7748592530  1.79027800e+00  4.46900000e-03  
    0.7764331050  1.78930900e+00  4.49700000e-03  
    0.7780068360  1.78833900e+00  4.52500000e-03  
    0.7795804440  1.78736800e+00  4.55400000e-03  
    0.7811539920  1.78639600e+00  4.58200000e-03  
    0.7827274170  1.78542300e+00  4.61100000e-03  
    0.7843006590  1.78444800e+00  4.64000000e-03  
    0.7858737790  1.78347200e+00  4.66900000e-03  
    0.7874467770  1.78249500e+00  4.69800000e-03  
    0.7890196530  1.78151700e+00  4.72800000e-03  
    0.7905924070  1.78053800e+00  4.75700000e-03  
    0.7921649780  1.77955700e+00  4.78700000e-03  
    0.7937374270  1.77857600e+00  4.81700000e-03  
    0.7953098140  1.77759300e+00  4.84700000e-03  
    0.7968820190  1.77660800e+00  4.87700000e-03  
    0.7984541630  1.77562300e+00  4.90700000e-03  
    0.8000260620  1.77463600e+00  4.93800000e-03  
    0.8015979000  1.77364800e+00  4.96800000e-03  
    0.8031695560  1.77265900e+00  4.99900000e-03  
    0.8047411500  1.77166800e+00  5.03000000e-03  
    0.8063125610  1.77067600e+00  5.06100000e-03  
    0.8078838500  1.76968300e+00  5.09200000e-03  
    0.8094549560  1.76868800e+00  5.12400000e-03  
    0.8110260010  1.76769200e+00  5.15500000e-03  
    0.8125968630  1.76669500e+00  5.18700000e-03  
    0.8141676030  1.76569600e+00  5.21900000e-03  
    0.8157382200  1.76469600e+00  5.25100000e-03  
    0.8173087160  1.76369500e+00  5.28300000e-03  
    0.8188790280  1.76269200e+00  5.31600000e-03  
    0.8204492190  1.76168800e+00  5.34800000e-03  
    0.8220192260  1.76068200e+00  5.38100000e-03  
    0.8235891720  1.75967500e+00  5.41400000e-03  
    0.8251589970  1.75866700e+00  5.44700000e-03  
    0.8267285160  1.75765700e+00  5.48000000e-03  
    0.8282980350  1.75664500e+00  5.51300000e-03  
    0.8298673710  1.75563300e+00  5.54700000e-03  
    0.8314366460  1.75461900e+00  5.58000000e-03  
    0.8330056760  1.75360300e+00  5.61400000e-03  
    0.8345745240  1.75258600e+00  5.64800000e-03  
    0.8361433720  1.75156700e+00  5.68200000e-03  
    0.8377119140  1.75054700e+00  5.71700000e-03  
    0.8392804570  1.74952600e+00  5.75100000e-03  
    0.8408487550  1.74850300e+00  5.78600000e-03  
    0.8424169920  1.74747800e+00  5.82100000e-03  
    0.8439849850  1.74645200e+00  5.85600000e-03  
    0.8455529170  1.74542500e+00  5.89100000e-03  
    0.8471206050  1.74439600e+00  5.92600000e-03  
    0.8486881710  1.74336500e+00  5.96200000e-03  
    0.8502556760  1.74233300e+00  5.99700000e-03  
    0.8518229370  1.74129900e+00  6.03300000e-03  
    0.8533901370  1.74026400e+00  6.06900000e-03  
    0.8549571530  1.73922700e+00  6.10500000e-03  
    0.8565240480  1.73818900e+00  6.14200000e-03  
    0.8580906980  1.73714900e+00  6.17800000e-03  
    0.8596572270  1.73610700e+00  6.21500000e-03  
    0.8612236330  1.73506400e+00  6.25200000e-03  
    0.8627898560  1.73401900e+00  6.28900000e-03  
    0.8643559570  1.73297300e+00  6.32600000e-03  
    0.8659218750  1.73192500e+00  6.36300000e-03  
    0.8674876710  1.73087500e+00  6.40100000e-03  
    0.8690533450  1.72982400e+00  6.43900000e-03  
    0.8706187740  1.72877100e+00  6.47700000e-03  
    0.8721840820  1.72771700e+00  6.51500000e-03  
    0.8737492070  1.72666000e+00  6.55300000e-03  
    0.8753142700  1.72560300e+00  6.59100000e-03  
    0.8768790890  1.72454300e+00  6.63000000e-03  
    0.8784437260  1.72348200e+00  6.66900000e-03  
    0.8800083010  1.72241900e+00  6.70800000e-03  
    0.8815726320  1.72135400e+00  6.74700000e-03  
    0.8831368410  1.72028800e+00  6.78600000e-03  
    0.8847008670  1.71922000e+00  6.82600000e-03  
    0.8862647710  1.71815000e+00  6.86500000e-03  
    0.8878284910  1.71707900e+00  6.90500000e-03  
    0.8893920900  1.71600600e+00  6.94500000e-03  
    0.8909554440  1.71493100e+00  6.98600000e-03  
    0.8925187380  1.71385400e+00  7.02600000e-03  
    0.8940818480  1.71277600e+00  7.06700000e-03  
    0.8956447140  1.71169600e+00  7.10700000e-03  
    0.8972075200  1.71061400e+00  7.14800000e-03  
    0.8987700200  1.70953100e+00  7.18900000e-03  
    0.9003325200  1.70844500e+00  7.23100000e-03  
    0.9018947140  1.70735800e+00  7.27200000e-03  
    0.9034568480  1.70626900e+00  7.31400000e-03  
    0.9050187380  1.70517800e+00  7.35600000e-03  
    0.9065804440  1.70408600e+00  7.39800000e-03  
    0.9081420900  1.70299200e+00  7.44000000e-03  
    0.9097034910  1.70189500e+00  7.48300000e-03  
    0.9112647710  1.70079800e+00  7.52600000e-03  
    0.9128258670  1.69969800e+00  7.56800000e-03  
    0.9143868410  1.69859600e+00  7.61100000e-03  
    0.9159475710  1.69749300e+00  7.65500000e-03  
    0.9175081180  1.69638700e+00  7.69800000e-03  
    0.9190684810  1.69528000e+00  7.74200000e-03  
    0.9206287230  1.69417100e+00  7.78600000e-03  
    0.9221887820  1.69306100e+00  7.83000000e-03  
    0.9237486570  1.69194800e+00  7.87400000e-03  
    0.9253084110  1.69083300e+00  7.91800000e-03  
    0.9268678590  1.68971700e+00  7.96300000e-03  
    0.9284272460  1.68859900e+00  8.00800000e-03  
    0.9299864500  1.68747800e+00  8.05300000e-03  
    0.9315455320  1.68635600e+00  8.09800000e-03  
    0.9331043090  1.68523200e+00  8.14300000e-03  
    0.9346629640  1.68410600e+00  8.18900000e-03  
    0.9362214970  1.68297800e+00  8.23500000e-03  
    0.9377797850  1.68184900e+00  8.28100000e-03  
    0.9393378910  1.68071700e+00  8.32700000e-03  
    0.9408958740  1.67958300e+00  8.37300000e-03  
    0.9424536130  1.67844800e+00  8.42000000e-03  
    0.9440112300  1.67731000e+00  8.46700000e-03  
    0.9455686650  1.67617000e+00  8.51400000e-03  
    0.9471258540  1.67502900e+00  8.56100000e-03  
    0.9486829220  1.67388600e+00  8.60900000e-03  
    0.9502398680  1.67274000e+00  8.65600000e-03  
    0.9517965090  1.67159300e+00  8.70400000e-03  
    0.9533530270  1.67044400e+00  8.75200000e-03  
    0.9549093630  1.66929200e+00  8.80100000e-03  
    0.9564655150  1.66813900e+00  8.84900000e-03  
    0.9580214840  1.66698300e+00  8.89800000e-03  
    0.9595772710  1.66582600e+00  8.94700000e-03  
    0.9611328130  1.66466700e+00  8.99600000e-03  
    0.9626881710  1.66350500e+00  9.04500000e-03  
    0.9642434690  1.66234200e+00  9.09500000e-03  
    0.9657984620  1.66117700e+00  9.14500000e-03  
    0.9673533330  1.66000900e+00  9.19500000e-03  
    0.9689080200  1.65884000e+00  9.24500000e-03  
    0.9704624020  1.65766800e+00  9.29500000e-03  
    0.9720167240  1.65649400e+00  9.34600000e-03  
    0.9735708010  1.65531900e+00  9.39700000e-03  
    0.9751246950  1.65414100e+00  9.44800000e-03  
    0.9766784060  1.65296100e+00  9.49900000e-03  
    0.9782319340  1.65177900e+00  9.55100000e-03  
    0.9797852780  1.65059500e+00  9.60200000e-03  
    0.9813385010  1.64940900e+00  9.65400000e-03  
    0.9828914180  1.64822100e+00  9.70700000e-03  
    0.9844441530  1.64703100e+00  9.75900000e-03  
    0.9859967040  1.64583800e+00  9.81200000e-03  
    0.9875490110  1.64464400e+00  9.86500000e-03  
    0.9891012570  1.64344700e+00  9.91800000e-03  
    0.9906531980  1.64224800e+00  9.97100000e-03  
    0.9922049560  1.64104700e+00  1.00250000e-02  
    0.9937566530  1.63984400e+00  1.00780000e-02  
    0.9953079830  1.63863900e+00  1.01320000e-02  
    0.9968591920  1.63743200e+00  1.01870000e-02  
    0.9984101560  1.63622200e+00  1.02410000e-02  
    0.9999610600  1.63501000e+00  1.02960000e-02  
